<Bundle xmlns="http://hl7.org/fhir">
	<id value="f56279fc-d473-11e9-bede-7586afef6d75"/>
	<meta>
		<profile value="https://fhir.nhs.uk/STU3/StructureDefinition/ITK-Message-Bundle-1"/>
	</meta>
	<identifier>
		<value value="f5627a01-d473-11e9-bede-7586afef6d75"/>
	</identifier>
	<type value="message"/>
	<entry>
		<fullUrl value="urn:uuid:f5627a02-d473-11e9-bede-7586afef6d75"/>
		<resource>
			<MessageHeader>
				<id value="f5627a02-d473-11e9-bede-7586afef6d75"/>
				<meta>
					<profile value="https://fhir.nhs.uk/STU3/StructureDefinition/ITK-MessageHeader-2"/>
				</meta>
				<extension url="https://fhir.nhs.uk/STU3/StructureDefinition/Extension-ITK-MessageHandling-2">
					<extension url="BusAckRequested">
						<valueBoolean value="false"/>
					</extension>
					<extension url="InfAckRequested">
						<valueBoolean value="true"/>
					</extension>
					<extension url="RecipientType">
						<valueCoding>
							<system value="https://fhir.nhs.uk/STU3/CodeSystem/ITK-RecipientType-1"/>
							<code value="FA"/>
							<display value="For Action"/>
						</valueCoding>
					</extension>
					<extension url="MessageDefinition">
						<valueReference>
							<reference value="https://fhir.nhs.uk/STU3/MessageDefinition/ITK-Response-MessageDefinition-1"/>
						</valueReference>
					</extension>
					<extension url="SenderReference">
						<valueString value="None"/>
					</extension>
					<extension url="LocalExtension">
						<valueString value="None"/>
					</extension>
				</extension>
				<event>
					<system value="https://fhir.nhs.uk/STU3/CodeSystem/ITK-MessageEvent-2"/>
					<code value="ITK008M"/>
					<display value="ITK Response"/>
				</event>
				<sender>
					<reference value="urn:uuid:f5627a03-d473-11e9-bede-7586afef6d75"/>
				</sender>
				<timestamp value="2019-09-11T09:10:11Z"/>
				<source>
					<endpoint value="urn:nhs-uk:addressing:ods:ITKTestHarness"/>
				</source>
				<response>
					<identifier value="bd253806-64e7-4c90-9adf-4866cd68aa66"/>
					<code value="ok"/>
					<details>
						<reference value="urn:uuid:f5627a04-d473-11e9-bede-7586afef6d75"/>
					</details>
				</response>
			</MessageHeader>
		</resource>
	</entry>
	<entry>
		<fullUrl value="urn:uuid:f5627a03-d473-11e9-bede-7586afef6d75"/>
		<resource>
			<Practitioner>
				<id value="f5627a03-d473-11e9-bede-7586afef6d75"/>
				<meta>
					<profile value="https://fhir.nhs.uk/STU3/StructureDefinition/CareConnect-ITK-Header-Practitioner-1"/>
				</meta>
				<name>
					<family value="Harness"/>
					<given value="ITK Test"/>
				</name>
			</Practitioner>
		</resource>
	</entry>
	<entry>
		<fullUrl value="urn:uuid:f5627a04-d473-11e9-bede-7586afef6d75"/>
		<resource>
			<OperationOutcome>
				<id value="f5627a04-d473-11e9-bede-7586afef6d75"/>
				<meta>
					<profile value="https://fhir.nhs.uk/STU3/StructureDefinition/ITK-Response-OperationOutcome-1"/>
				</meta>
				<issue>
					<severity value="information"/>
					<code value="informational"/>
					<details>
						<coding>
							<system value="https://fhir.nhs.uk/STU3/CodeSystem/ITK-ResponseCodes-1"/>
							<code value="30001"/>
							<display value="Patient known here. (e.g. Patient is registered here)"/>
						</coding>
					</details>
				</issue>
			</OperationOutcome>
		</resource>
	</entry>
</Bundle>