<?xml version="1.0" encoding="UTF-8"?>
<Bundle xmlns="http://hl7.org/fhir">
	<id value="e6492db3-3788-4519-bebd-2bdf7d7236d8"/>
	<meta>
		<profile value="https://fhir.nhs.uk/STU3/StructureDefinition/ITK-Message-Bundle-1"/>
	</meta>
	<identifier>
		<value value="a3940bf5-b82e-4c4f-9477-9bbe6861d634"/>
	</identifier>
	<type value="message"/>
	<entry>
		<fullUrl value="urn:uuid:a4409d7c-b613-477c-b623-87e60406c2f0"/>
		<resource>
			<MessageHeader>
				<id value="a4409d7c-b613-477c-b623-87e60406c2f0"/>
				<meta>
					<profile value="https://fhir.nhs.uk/STU3/StructureDefinition/ITK-MessageHeader-2"/>
				</meta>
				<extension url="https://fhir.nhs.uk/STU3/StructureDefinition/Extension-ITK-MessageHandling-2">
					<extension url="BusAckRequested">
						<valueBoolean value="true"/>
					</extension>
					<extension url="InfAckRequested">
						<valueBoolean value="true"/>
					</extension>
					<extension url="RecipientType">
						<valueCoding>
							<system value="https://fhir.nhs.uk/STU3/CodeSystem/ITK-RecipientType-1"/>
							<code value="FA"/>
							<display value="For Action"/>
						</valueCoding>
					</extension>
					<extension url="Priority">
						<valueCoding>
							<system value="https://fhir.nhs.uk/STU3/CodeSystem/ITK-Priority-1"/>
							<code value="routine"/>
							<display value="Routine"/>
						</valueCoding>
					</extension>
					<extension url="MessageDefinition">
						<valueReference>
							<reference value="https://fhir.nhs.uk/STU3/MessageDefinition/ITK-EDIS-MessageDefinition-1"/>
						</valueReference>
					</extension>
				</extension>
				<event>
					<system value="https://fhir.nhs.uk/STU3/CodeSystem/ITK-MessageEvent-2"/>
					<code value="ITK006D"/>
					<display value="ITK Outpatient Letter"/>
				</event>
				<receiver>
					<reference value="c7d0d92f-4db9-4ab0-89c8-375afca971ad"/>
				</receiver>
				<sender>
					<reference value="b86216fe-6a51-4687-af97-4b7d58154c39"/>
				</sender>
					<timestamp value="2019-08-09T15:19:44.287+01:00"/>
				<source>
					<endpoint value="1.2.826.0.1285.0.2.0.107"/>
				</source>
				<focus>
					<reference value="289f9d42-6f97-40d2-890a-d3d0af397ac7"/>
				</focus>
			</MessageHeader>
		</resource>
	</entry>
	<!--Practitioner-->
	<entry>
		<fullUrl value="urn:uuid:b86216fe-6a51-4687-af97-4b7d58154c39"/>
		<resource>
			<Practitioner>
				<id value="b86216fe-6a51-4687-af97-4b7d58154c39"/>
				<meta>
					<profile value="https://fhir.nhs.uk/STU3/StructureDefinition/CareConnect-ITK-Header-Practitioner-1"/>
				</meta>
				<identifier>
					<system value="https://fhir.nhs.uk/Id/sds-user-id"/>
					<value value="033345750518"/>
				</identifier>
				<name>
					<family value="Rastall"/>
					<given value="Paul"/>
					<prefix value="Dr"/>
				</name>
			</Practitioner>
		</resource>
	</entry>
	<!--Organization-->
	<entry>
		<fullUrl value="urn:uuid:c7d0d92f-4db9-4ab0-89c8-375afca971ad"/>
		<resource>
			<Organization>
				<id value="c7d0d92f-4db9-4ab0-89c8-375afca971ad"/>
				<meta>
					<profile value="https://fhir.nhs.uk/STU3/StructureDefinition/CareConnect-ITK-Header-Organization-1"/>
				</meta>
				<identifier>
					<system value="https://fhir.nhs.uk/Id/ods-organization-code"/>
					<value value="RY6"/>
				</identifier>
			</Organization>
		</resource>
	</entry>
	<entry>
		<fullUrl value="urn:uuid:289f9d42-6f97-40d2-890a-d3d0af397ac7"/>
		<resource>
			<!--This xml example is for illustrative purposes only and has not been clinically verified-->
			<Bundle xmlns="http://hl7.org/fhir">
				<id value="6191cc21-cb11-4d99-8cb2-2afe1c7e9d2f"/>
				<meta>
					<profile value="https://fhir.nhs.uk/STU3/StructureDefinition/ITK-Document-Bundle-1"/>
				</meta>
				<identifier>
					<system value="https://tools.ietf.org/html/rfc4122"/>
					<value value="720d56df-6ac7-4803-bde3-e3a2373cd61e"/>
				</identifier>
				<type value="document"/>
				<!--Outpatient Letter Composition-->
				<entry>
					<fullUrl value="urn:uuid:95ab3b52-b229-43db-a919-fa09db5e08d3"/>
					<resource>
						<Composition>
							<id value="95ab3b52-b229-43db-a919-fa09db5e08d3"/>
							<meta>
								<profile value="https://fhir.nhs.uk/STU3/StructureDefinition/ITK-OPL-Composition-1"/>
							</meta>
							<!-- Extension to carry details of the Correspondence Care Setting Type. -->
							<extension url="https://fhir.nhs.uk/STU3/StructureDefinition/Extension-ITK-CareSettingType-1">
								<valueCodeableConcept>
									<coding>
										<system value="http://snomed.info/sct"/>
										<code value="310091004"/>
										<display value="Community-based dietetics service"/>
									</coding>
								</valueCodeableConcept>
							</extension>
							<identifier>
								<value value="080725c3-eb0f-45b6-8beb-f33d9f0edabe"/>
							</identifier>
							<status value="final"/>
							<type>
								<!--Outpatient letter -->
								<coding>
									<system value="http://snomed.info/sct"/>
									<code value="823681000000100"/>
									<display value="Outpatient letter"/>
								</coding>
							</type>
							<subject>
								<reference value="urn:uuid:4e17be8f-8694-47e3-8740-ccf306f6cf02"/>
							</subject>
							<!--Reference to the clinical encounter or type of care this documentation is associated with.-->
							<encounter>
								<reference value="urn:uuid:bd25f74e-2be5-4728-ac16-4771e2998cd2"/>
							</encounter>
							<!--The composition editing time, when the composition was last logically changed by the author.-->
							<date value="2017-05-06T16:42:00+00:00"/>
							<!--Identifies who is responsible for the information in the composition, not necessarily who typed it in-->
							<author>
								<reference value="urn:uuid:2c064afa-dbd6-44b8-86e6-a3e7fbdbcb48"/>
							</author>
							<title value="Outpatient letter"/>
							<!--Identifies the organization responsible for ongoing maintenance of and access to the composition/document information.-->
							<custodian>
								<reference value="urn:uuid:f93186cd-b628-47e6-b97f-102ae75e6845"/>
							</custodian>
							<section>
								<title value="Allergies and adverse reactions"/>
								<code>
									<coding>
										<system value="http://snomed.info/sct"/>
										<code value="886921000000105"/>
										<display value="Allergies and adverse reactions"/>
									</coding>
								</code>
								<text>
									<status value="generated"/>
									<div xmlns="http://www.w3.org/1999/xhtml">
										<table width="100%">
											<tbody>
												<tr>
													<th>Causative agent</th>
													<td>No known drug allergies or adverse reactions</td>
												</tr>
											</tbody>
										</table>
									</div>
								</text>
								<!--Reference to the resources where information for this section can be found-->
								<entry>
									<reference value="urn:uuid:0155caaa-588e-4e74-9be9-9481a2310c22"/>
								</entry>
							</section>
							<section>
								<title value="Attendance details"/>
								<code>
									<coding>
										<system value="http://snomed.info/sct"/>
										<code value="1077881000000105"/>
										<display value="Attendance details"/>
									</coding>
								</code>
								<text>
									<status value="additional"/>
									<div xmlns="http://www.w3.org/1999/xhtml">
										<table width="100%">
											<tbody>
												<tr>
													<td colspan="2" style="width:100%">Dear Dr. O'Reilly, <br/>I had the pleasure of meeting Mr. Linacre at the Community Nutrition and Dietetics outpatient clinic on 1 May 2017, referred by Sugra Bibi, Hospital dietician at St Crispin's Hospital, Donaldstown, DO5 7TP. <br/>
													</td>
												</tr>
												<tr>
													<th>Date and time of contact</th>
													<td>01-May-2017 09:00 to 09:45</td>
												</tr>
												<tr>
													<th>Contact type</th>
													<td>First attendance face to face</td>
												</tr>
												<tr>
													<th>Consultation method</th>
													<td>Face-to-face</td>
												</tr>
												<tr>
													<th>Responsible healthcare professional</th>
													<td>Dr. Gerald McManus (Consultant Neurologist)</td>
												</tr>
												<tr>
													<th>Specialty</th>
													<td>Neurology</td>
												</tr>
												<tr>
													<th>Service</th>
													<td>Community-based dietetics service</td>
												</tr>
												<tr>
													<th>Seen by</th>
													<td>
														<p>Susan Blight</p>
														<p>Role: Community Dietitian</p>
														<p>Tel: (01234) 569870</p>
													</td>
												</tr>
												<tr>
													<th>Outcome of outpatient attendance</th>
													<td>Appointment to be made at a later date (for follow-up via telephone within 1 month.)</td>
												</tr>
											</tbody>
										</table>
									</div>
								</text>
							</section>
							<section>
								<title value="Clinical summary"/>
								<code>
									<coding>
										<system value="http://snomed.info/sct"/>
										<code value="887181000000106"/>
										<display value="Clinical summary"/>
									</coding>
								</code>
								<text>
									<status value="additional"/>
									<div xmlns="http://www.w3.org/1999/xhtml">
										<table width="100%">
											<tbody>
												<tr>
													<th>Clinical Summary</th>
												</tr>
												<tr>
													<td>The estimated nutritional requirements for Mr. Linacre are Energy 1500kcla/day, Protein 80g/day, Fluid 2400mls/day.</td>
												</tr>
												<tr>
													<td>Mr. Linacre is tolerating his feed and fluid flushes well as per his feeding regimen and he reports being compliant with his medication.</td>
												</tr>
												<tr>
													<td>Mr. Linacre's peg site has healed and was clean and dry and exposed on assessment.</td>
												</tr>
												<tr>
													<td>Mr. Linacre's bowels are opening daily (with no bowel meds), all pressure areas are intact and his weight is stable.</td>
												</tr>
											</tbody>
										</table>
									</div>
								</text>
							</section>
							<section>
								<title value="Diagnoses"/>
								<code>
									<coding>
										<system value="http://snomed.info/sct"/>
										<code value="887161000000102"/>
										<display value="Diagnoses"/>
									</coding>
								</code>
								<text>
									<status value="generated"/>
									<div xmlns="http://www.w3.org/1999/xhtml">
										<table width="100%">
											<tbody>
												<tr>
													<th>Diagnosis name</th>
													<td>Stroke</td>
												</tr>
											</tbody>
										</table>
									</div>
								</text>
								<entry>
									<reference value="urn:uuid:abbf4c46-f97b-4b04-9248-4f99a21e1879"/>
								</entry>
							</section>
							<!--Distribution list-->
							<section>
								<title value="Distribution list"/>
								<code>
									<coding>
										<system value="http://snomed.info/sct"/>
										<code value="887261000000109"/>
										<display value="Distribution list"/>
									</coding>
								</code>
								<text>
									<status value="generated"/>
									<div xmlns="http://www.w3.org/1999/xhtml">
										<table width="100%">
											<tbody>
												<tr>
													<th>Name</th>
													<td>Doug Sway</td>
												</tr>
												<tr>
													<th>Role</th>
													<td>Feeding Nurse</td>
												</tr>
												<tr>
													<th>Organisation</th>
													<td>Company X</td>
												</tr>
												<tr>
													<th>Relationship to subject</th>
													<td>Patient's feeding nurse</td>
												</tr>
											</tbody>
										</table>
										<table width="100%">
											<tbody>
												<tr>
													<th>Name</th>
													<td>Dr C O'Reilly</td>
												</tr>
												<tr>
													<th>Role</th>
													<td>GP</td>
												</tr>
												<tr>
													<th>Organisation</th>
													<td>Canvas Health Centre - Organisation ID: A111111</td>
												</tr>
												<tr>
													<th>Relationship to subject</th>
													<td>GP</td>
												</tr>
											</tbody>
										</table>
										<table width="100%">
											<tbody>
												<tr>
													<th>Name</th>
													<td>Sugra Bibi</td>
												</tr>
												<tr>
													<th>Role</th>
													<td>Hospital Dietitian</td>
												</tr>
												<tr>
													<th>Organisation</th>
													<td>St. Crispin's Hospital - Organisation ID: RX0000</td>
												</tr>
												<tr>
													<th>Relationship to subject</th>
													<td>Patient's Hospital Dietitian</td>
												</tr>
											</tbody>
										</table>
										<table width="100%">
											<tbody>
												<tr>
													<th>Name</th>
													<td>Dr Gerald McManus</td>
												</tr>
												<tr>
													<th>Role</th>
													<td>Consultant Neurologist</td>
												</tr>
												<tr>
													<th>Organisation</th>
													<td>St. Crispin's Hospital - Organisation ID: RX0000</td>
												</tr>
												<tr>
													<th>Relationship to subject</th>
													<td>Patient's Consultant</td>
												</tr>
											</tbody>
										</table>
										<table width="100%">
											<tbody>
												<tr>
													<th>Name</th>
													<td>Thomas Linacre</td>
												</tr>
												<tr>
													<th>Role</th>
													<td>Patient</td>
												</tr>
											</tbody>
										</table>
									</div>
								</text>
								<!--Reference to the practitioner entries as recipients of information-->
								<entry>
									<reference value="urn:uuid:5ca24866-f34e-43d5-9d4a-c661beb9b5ae"/>
								</entry>
								<entry>
									<reference value="urn:uuid:5e414a77-d394-4248-a631-00e45ddb64a0"/>
								</entry>
								<entry>
									<reference value="urn:uuid:246a8b1a-24af-4690-b894-effe41c5638b"/>
								</entry>
								<entry>
									<reference value="urn:uuid:d25fd1c6-2658-4db7-9af0-86c5f95e8ec9"/>
								</entry>
								<!--Reference to the patient entry as recipient of information-->
								<entry>
									<reference value="urn:uuid:4e17be8f-8694-47e3-8740-ccf306f6cf02"/>
								</entry>
							</section>
							<section>
								<title value="Examination finding"/>
								<code>
									<coding>
										<system value="http://snomed.info/sct"/>
										<code value="715851000000102"/>
										<display value="Examination findings"/>
									</coding>
								</code>
								<text>
									<status value="generated"/>
									<div xmlns="http://www.w3.org/1999/xhtml">
										<table width="100%">
											<tbody>
												<tr>
													<th>Examination findings</th>
													<td>Weight 80kg, Height 175cm, BMI 26kg/m2</td>
												</tr>
											</tbody>
										</table>
									</div>
								</text>
								<!--Reference to the resources where information for this section can be found-->
								<entry>
									<reference value="urn:uuid:3beb965d-6ba3-4731-b702-4f701affd73b"/>
								</entry>
								<entry>
									<reference value="urn:uuid:c3e59755-a24e-428c-8c2d-679586d9b351"/>
								</entry>
								<entry>
									<reference value="urn:uuid:5cdabdbb-c5ea-40d4-8a7d-15eaa441e7ff"/>
								</entry>
							</section>
							<!-- GP Practice-->
							<section>
								<title value="GP practice"/>
								<code>
									<coding>
										<system value="http://snomed.info/sct"/>
										<code value="886711000000101"/>
										<display value="GP practice details"/>
									</coding>
								</code>
								<text>
									<status value="additional"/>
									<div xmlns="http://www.w3.org/1999/xhtml">
										<table width="100%">
											<tbody>
												<tr>
													<th>GP practice identifier</th>
													<td>A111111</td>
												</tr>
												<tr>
													<th>GP name</th>
													<td>Dr C O'Reilly</td>
												</tr>
												<tr>
													<th>GP practice details</th>
													<td>Canvas Health Centre, 27, Acacia Road, BM9 6PM</td>
												</tr>
											</tbody>
										</table>
									</div>
								</text>
								<!--Reference to the Organisation entry as the source of information for this section-->
								<entry>
									<reference value="urn:uuid:f9f24f89-646b-4a19-a6b1-cabfa3b612e1"/>
								</entry>
							</section>
							<section>
								<title value="History"/>
								<code>
									<coding>
										<system value="http://snomed.info/sct"/>
										<code value="717121000000105"/>
										<display value="History"/>
									</coding>
								</code>
								<text>
									<status value="generated"/>
									<div xmlns="http://www.w3.org/1999/xhtml">
										<table width="100%">
											<tbody>
												<tr>
													<th>Presenting complaints or issue</th>
													<td>Following a stroke Mr. Linacre experienced acquired swallowing difficulties.</td>
												</tr>
												<tr>
													<th>History of each presenting complaint or issue</th>
													<td>Mr. Linacre attended the community nutrition and dietetics outpatient clinic for review of feeding. During a recent admission to hospital Mr. Linacre was established on PEG tube feeding. The feeding tube insitu is a 15French PEG tube placed 05/04/17.</td>
												</tr>
												<tr>
													<th>History since last contact</th>
													<td>Mr. Linacre's feeding regimen being: 1000mls Energy Multifibre Feed at 100mls/hours for 10 hours (9am-7pm) with 1400mls water given as divided flushes (e.g. 10x140mls) throughout the day e.g. before and after feed and with medications. His weight is stable. Mr. Linacre has tolerated the regimen well.</td>
												</tr>
											</tbody>
										</table>
									</div>
								</text>
								<!--Reference to the resources where information for this section can be found-->
								<entry>
									<reference value="urn:uuid:abbf4c46-f97b-4b04-9248-4f99a21e1879"/>
								</entry>
								<entry>
									<reference value="urn:uuid:4ee4465e-ed0d-4a62-b110-6fcfce3156e9"/>
								</entry>
								<entry>
									<reference value="urn:uuid:39a0d8f9-2c19-48cf-90f5-842d7659df05"/>
								</entry>
								<entry>
									<reference value="urn:uuid:efc63641-7407-464a-8db8-f6f0a5eafc58"/>
								</entry>
							</section>
							<!--Individual requirements-->
							<section>
								<title value="Individual requirements"/>
								<code>
									<coding>
										<system value="http://snomed.info/sct"/>
										<code value="1052901000000109"/>
										<display value="Individual requirement"/>
									</coding>
								</code>
								<text>
									<status value="additional"/>
									<div xmlns="http://www.w3.org/1999/xhtml">
										<table width="100%">
											<tbody>
												<tr>
													<th>Individual requirements</th>
													<td>Patient requires a backpack as he did not like feeding during the night when he was in hospital and he feels restricted staying at home at present.</td>
												</tr>
											</tbody>
										</table>
									</div>
								</text>
							</section>
							<section>
								<title value="Information and advice given"/>
								<code>
									<coding>
										<system value="http://snomed.info/sct"/>
										<code value="1052951000000105"/>
										<display value="Information and advice given"/>
									</coding>
								</code>
								<text>
									<status value="additional"/>
									<div xmlns="http://www.w3.org/1999/xhtml">
										<table width="100%">
											<tbody>
												<tr>
													<th>Information and advice given</th>
													<td>Mr. Linacre was given the clinic contact details and a copy of his feeding regime with Trust guidance.</td>
												</tr>
											</tbody>
										</table>
									</div>
								</text>
							</section>
							<!--Legal information - information not provided-->
							<section>
								<title value="Medications and medical devices"/>
								<code>
									<coding>
										<system value="http://snomed.info/sct"/>
										<code value="933361000000108"/>
										<display value="Medications and medical devices"/>
									</coding>
								</code>
								<text>
									<status value="generated"/>
									<div xmlns="http://www.w3.org/1999/xhtml">
										<table width="100%">
											<tbody>
												<tr>
													<td style="width:100%">(only changes to medications and medical devices as a result of the outpatient encounter are included)</td>
												</tr>
											</tbody>
										</table>
										<table width="100%">
											<tbody>
												<tr>
													<th>Medication item</th>
													<td>Medication name: Energy Multifibre feed</td>
													<td>Route: Via PEG tube</td>
													<td>Dose directions description: Mr. Linacre needs 100mls Energy Multifibre Feed at 100mls/day over 10 hours (9am-7pm)</td>
												</tr>
												<tr>
													<th>Medication change</th>
													<td>Status: Amended</td>
													<td colspan="2">Comment: Please prescribe 28 x 100ml bags per month. Prescription to be sent directly to the feed company who will deliver direct to patient.</td>
												</tr>
											</tbody>
										</table>
										<table width="100%">
											<tbody>
												<tr>
													<th>Medication item</th>
													<td>Medication name: Water</td>
													<td>Route: Flushes via PEG tube</td>
													<td>Dose directions description: 1400mls per day in divided flushes (e.g. 10x140mls) throughout the day e.g. before and after feed and with medications.</td>
												</tr>
											</tbody>
										</table>
										<table width="100%">
											<tbody>
												<tr>
													<th>Medical devices</th>
													<td>Mr. Linacre has been supplied with a feeding pump.</td>
												</tr>
											</tbody>
										</table>
									</div>
								</text>
								<!--Reference to medication list-->
								<entry>
									<reference value="urn:uuid:cef7f8d5-78e3-4866-89f1-62470d6fd636"/>
								</entry>
							</section>
							<!-- Patient demographics-->
							<section>
								<title value="Patient demographics"/>
								<code>
									<coding>
										<system value="http://snomed.info/sct"/>
										<code value="886731000000109"/>
										<display value="Patient demographics"/>
									</coding>
								</code>
								<text>
									<status value="generated"/>
									<div xmlns="http://www.w3.org/1999/xhtml">
										<table width="100%">
											<tbody>
												<tr>
													<th>Patient name</th>
													<td>Mr. Thomas Linacre</td>
												</tr>
												<tr>
													<th>Patient preferred name</th>
													<td>Tom Linacre</td>
												</tr>
												<tr>
													<th>Date of birth</th>
													<td>1 January 1960</td>
												</tr>
												<tr>
													<th>Gender</th>
													<td>1 Male</td>
												</tr>
												<tr>
													<th>NHS number</th>
													<td>123 456 7899</td>
												</tr>
												<tr>
													<th>Other identifier</th>
													<td>TL98765</td>
												</tr>
												<tr>
													<th>Patient address</th>
													<td>29, Acacia Road, BM9 6PL</td>
												</tr>
												<tr>
													<th>Patient email address</th>
													<td>thomas@linacre.net</td>
												</tr>
												<tr>
													<th>Patient telephone number</th>
													<td>077 7777 777</td>
												</tr>
											</tbody>
										</table>
									</div>
								</text>
								<!--reference to further information carried in the patient resource-->
								<entry>
									<reference value="urn:uuid:4e17be8f-8694-47e3-8740-ccf306f6cf02"/>
								</entry>
							</section>
							<section>
								<title value="Person completing record"/>
								<code>
									<coding>
										<system value="http://snomed.info/sct"/>
										<code value="887231000000104"/>
										<display value="Person completing record"/>
									</coding>
								</code>
								<text>
									<status value="generated"/>
									<div xmlns="http://www.w3.org/1999/xhtml">
										<table width="100%">
											<tbody>
												<tr>
													<th>Name</th>
													<td>Susan Blight</td>
												</tr>
												<tr>
													<th>Role</th>
													<td>Community Dietitian</td>
												</tr>
												<tr>
													<th>Grade</th>
													<td>Not given</td>
												</tr>
												<tr>
													<th>Specialty</th>
													<td>Dietetics and nutrition</td>
												</tr>
												<tr>
													<th>Professional identifier</th>
													<td>DT03001</td>
												</tr>
												<tr>
													<th>Date and time completed</th>
													<td>06 May 2017 16:42</td>
												</tr>
												<tr>
													<th>Contact details</th>
													<td>Tel: (01234) 569870</td>
												</tr>
											</tbody>
										</table>
									</div>
								</text>
								<!--reference to practitioner entry-->
								<entry>
									<reference value="urn:uuid:2c064afa-dbd6-44b8-86e6-a3e7fbdbcb48"/>
								</entry>
							</section>
							<section>
								<title value="Plan and requested actions"/>
								<code>
									<coding>
										<system value="http://snomed.info/sct"/>
										<code value="887201000000105"/>
										<display value="Plan and requested actions"/>
									</coding>
								</code>
								<text>
									<status value="additional"/>
									<div xmlns="http://www.w3.org/1999/xhtml">
										<table width="100%">
											<tbody>
												<tr>
													<th>Actions for healthcare professionals</th>
													<td>A backpack has been ordered (05/05/17) so that Mr. Linacre can feed when he goes out during the day as he did not like feeding during the night when he was in hospital and feels restricted to stay at home at the moment.<br/>
														<p>Person Responsible: Susan Blight - Community Dietitian, Adobe Health Centre Community Dietetics Department.</p>
														<p>Action status: Completed</p>
														<br/>

     Follow-up via telephone within 1 month.<br/>
														<p>Person Responsible: Susan Blight - Community Dietitian, Adobe Health Centre Community Dietetics Department.</p>
														<p>Action status: Requested</p>
														<br/>

      Please prescribe 28 x 100ml bags per month. Prescription to be sent directly to the feed company who will deliver direct to patient. <br/>
														<p>Person Responsible: Dr. C. O'Reilly - GP, Canvas Health Centre. </p>
														<p>Action status: Requested</p>
														<br/>

        Feeding Company Nurse has been requested (05/05/17) to train Mr. Linacre on use of pump. <br/>
														<p>Person Responsible: Doug Sway - Feeding nurse, Company X.</p>
														<p> Action status: Requested</p>
													</td>
												</tr>
												<tr>
													<th>Actions for patient or their carer</th>
													<td>Mr. Linacre has been asked to continue on feeding regime.</td>
												</tr>
												<tr>
													<th>Agreed with patient or legitimate patient representative</th>
													<td>Mr. Linacre has agreed to continue on the recommended regime.</td>
												</tr>
												<tr>
													<th>Care planning arrangements</th>
													<td>CPA documentation not currently accessible.</td>
												</tr>
											</tbody>
										</table>
									</div>
								</text>
							</section>
							<section>
								<title value="Problems and issues"/>
								<code>
									<coding>
										<system value="http://snomed.info/sct"/>
										<code value="887151000000100"/>
										<display value="Problems and issues"/>
									</coding>
								</code>
								<text>
									<status value="additional"/>
									<div xmlns="http://www.w3.org/1999/xhtml">
										<table width="100%">
											<tbody>
												<tr>
													<th>Problems and Issues</th>
													<td>Acquired swallowing difficulties</td>
												</tr>
											</tbody>
										</table>
									</div>
								</text>
							</section>
							<section>
								<title value="Procedures"/>
								<code>
									<coding>
										<system value="http://snomed.info/sct"/>
										<code value="887171000000109"/>
										<display value="Procedures"/>
									</coding>
								</code>
								<text>
									<status value="generated"/>
									<div xmlns="http://www.w3.org/1999/xhtml">
										<table width="100%">
											<tbody>
												<tr>
													<th>Procedure name</th>
													<td>Review of feeding regimen<p>Comment: Performed by Susan Blight, 1 May 2017 09:45.</p>
													</td>
												</tr>
												<tr>
													<th>Procedure name</th>
													<td>PEG<p>Comments: Performed on 5 April 2017 08:55.</p>
													</td>
												</tr>
											</tbody>
										</table>
									</div>
								</text>
								<entry>
									<reference value="urn:uuid:f26df24c-eeb5-44a1-b59c-f78a421d308c"/>
								</entry>
								<entry>
									<reference value="urn:uuid:39a0d8f9-2c19-48cf-90f5-842d7659df05"/>
								</entry>
							</section>
							<section>
								<title value="Referrer details"/>
								<code>
									<coding>
										<system value="http://snomed.info/sct"/>
										<code value="1052891000000108"/>
										<display value="Referrer details"/>
									</coding>
								</code>
								<text>
									<status value="additional"/>
									<div xmlns="http://www.w3.org/1999/xhtml">
										<table width="100%">
											<tbody>
												<tr>
													<th>Referrer details</th>
													<td>
														<p>Name: Sugra Bibi</p>
														<p>Role: Hospital Dietitian</p>
														<p>Grade: Senior Dietitian</p>
														<p>Tel: (01234) 777870</p>
														<p>Organisation: Dietetics Department, St. Crispin's Hospital, Donaldstown, DO5 7TP</p>
													</td>
												</tr>
											</tbody>
										</table>
									</div>
								</text>
							</section>
							<!--Safety alerts - information not given for this section-->
						</Composition>
					</resource>
				</entry>
				<!--Encounter Example 1-->
				<entry>
					<fullUrl value="urn:uuid:bd25f74e-2be5-4728-ac16-4771e2998cd2"/>
					<resource>
						<Encounter>
							<id value="bd25f74e-2be5-4728-ac16-4771e2998cd2"/>
							<meta>
								<profile value="https://fhir.hl7.org.uk/STU3/StructureDefinition/CareConnect-Encounter-1"/>
							</meta>
							<extension url="https://fhir.hl7.org.uk/STU3/StructureDefinition/Extension-CareConnect-OutcomeOfAttendance-1">
								<valueCodeableConcept>
									<coding>
										<system value="https://fhir.hl7.org.uk/STU3/CodeSystem/CareConnect-OutcomeOfAttendance-1"/>
										<code value="3"/>
										<display value="Appointment to be made at a later date"/>
									</coding>
								</valueCodeableConcept>
							</extension>
							<identifier>
								<system value="https://tools.ietf.org/html/rfc4122"/>
								<value value="13c73015-d8fa-4844-8d68-4f856883eca8"/>
							</identifier>
							<status value="finished"/>
							<class>
								<system value="http://hl7.org/fhir/v3-ActEncounterCode"/>
								<code value="AMB"/>
								<display value="ambulatory"/>
							</class>
							<!--Specific type of encounter-->
							<type>
								<coding>
									<system value="http://snomed.info/sct"/>
									<code value="163381000000105"/>
									<display value="Outpatient Clinic Attendance"/>
								</coding>
							</type>
							<!--Reference to the patient as the subject of the Encounter-->
							<subject>
								<reference value="urn:uuid:4e17be8f-8694-47e3-8740-ccf306f6cf02"/>
							</subject>
							<!--Reference to the participants present during the encounter-->
							<participant>
								<type>
									<coding>
										<system value="http://hl7.org/fhir/v3/ParticipationType"/>
										<code value="PPRF"/>
										<display value="primary performer"/>
									</coding>
								</type>
								<individual>
									<reference value="urn:uuid:2c064afa-dbd6-44b8-86e6-a3e7fbdbcb48"/>
								</individual>
							</participant>
							<period>
								<start value="2017-05-01T09:00:00+00:00"/>
								<end value="2017-05-01T09:45:00+00:00"/>
							</period>
							<!--	The list of diagnoses relevant to this encounter-->
							<diagnosis>
								<!--Reason the encounter takes place (resource)-->
								<condition>
									<reference value="urn:uuid:f26df24c-eeb5-44a1-b59c-f78a421d308c"/>
								</condition>
							</diagnosis>
							<hospitalization>
								<!--	Category or kind of location after discharge-->
								<dischargeDisposition>
									<coding>
										<system value="https://fhir.hl7.org.uk/STU3/CodeSystem/CareConnect-DischargeDestination-1"/>
										<code value="19"/>
										<display value="Usual place of residence unless listed below, for example, a private dwelling whether owner occupied or owned by Local Authority, housing association or other landlord. This includes wardened accommodation but not residential accommodation where health care is provided. It also includes Patients with no fixed abode."/>
									</coding>
								</dischargeDisposition>
							</hospitalization>
						</Encounter>
					</resource>
				</entry>
				<!--Medication List Example 1-->
				<entry>
					<fullUrl value="urn:uuid:cef7f8d5-78e3-4866-89f1-62470d6fd636"/>
					<resource>
						<List>
							<id value="cef7f8d5-78e3-4866-89f1-62470d6fd636"/>
							<meta>
								<profile value="https://fhir.nhs.uk/STU3/StructureDefinition/ITK-Medication-List-1"/>
							</meta>
							<identifier>
								<system value="https://tools.ietf.org/html/rfc4122"/>
								<value value="c28e33b7-dd29-4c9d-957c-ab4a834e5e77"/>
							</identifier>
							<status value="current"/>
							<mode value="snapshot"/>
							<code>
								<coding>
									<system value="http://hl7.org/fhir/list-example-use-codes"/>
									<code value="medications"/>
									<display value="Medication List"/>
								</coding>
							</code>
							<subject>
								<reference value="urn:uuid:4e17be8f-8694-47e3-8740-ccf306f6cf02"/>
							</subject>
							<entry>
								<flag>
									<coding>
										<system value="https://fhir.nhs.uk/STU3/CodeSystem/ITK-PatientMedicationChangeType-1"/>
										<code value="05"/>
										<display value="Discontinued"/>
									</coding>
								</flag>
								<item>
									<reference value="urn:uuid:11baa8fd-b670-47d1-ab3a-183488af5c6e"/>
								</item>
							</entry>
							<entry>
								<flag>
									<coding>
										<system value="https://fhir.nhs.uk/STU3/CodeSystem/ITK-PatientMedicationChangeType-1"/>
										<code value="02"/>
										<display value="Amendment"/>
									</coding>
								</flag>
								<item>
									<reference value="urn:uuid:9ab72b73-c3e2-434a-a7df-234134215a7e"/>
								</item>
							</entry>
							<entry>
								<flag>
									<coding>
										<system value="https://fhir.nhs.uk/STU3/CodeSystem/ITK-PatientMedicationChangeType-1"/>
										<code value="09"/>
										<display value="Active"/>
									</coding>
								</flag>
								<item>
									<reference value="urn:uuid:fb7a3452-a454-40c4-8958-5c1a0a186aca"/>
								</item>
							</entry>
						</List>
					</resource>
				</entry>
				<!--Medication Statement Example 1 - for the Multifibre feed prior to the Outpatient appointment-->
				<entry>
					<fullUrl value="urn:uuid:11baa8fd-b670-47d1-ab3a-183488af5c6e"/>
					<resource>
						<MedicationStatement>
							<id value="11baa8fd-b670-47d1-ab3a-183488af5c6e"/>
							<meta>
								<profile value="https://fhir.nhs.uk/STU3/StructureDefinition/CareConnect-ITK-MedicationStatement-1"/>
							</meta>
							<status value="stopped"/>
							<medicationReference>
								<reference value="urn:uuid:46c1a1b6-c2a5-44bc-a0df-80db5d4fb423"/>
							</medicationReference>
							<effectivePeriod>
								<start value="2017-04-05T11:00:00+00:00"/>
								<end value="2017-05-01T09:00:00+00:00"/>
							</effectivePeriod>
							<subject>
								<reference value="urn:uuid:4e17be8f-8694-47e3-8740-ccf306f6cf02"/>
							</subject>
							<taken value="y"/>
							<dosage>
								<text value="1000mls Energy Multifibre Feed at 100mls/hours for 10 hours (9am-7pm)"/>
								<timing>
									<repeat>
										<frequency value="10"/>
										<period value="1"/>
										<periodUnit value="d"/>
										<timeOfDay value="09:00:00"/>
										<timeOfDay value="10:00:00"/>
										<timeOfDay value="11:00:00"/>
										<timeOfDay value="12:00:00"/>
										<timeOfDay value="13:00:00"/>
										<timeOfDay value="14:00:00"/>
										<timeOfDay value="15:00:00"/>
										<timeOfDay value="16:00:00"/>
										<timeOfDay value="17:00:00"/>
										<timeOfDay value="18:00:00"/>
									</repeat>
								</timing>
								<asNeededBoolean value="false"/>
								<route>
									<coding>
										<system value="http://snomed.info/sct"/>
										<code value="225373002"/>
										<display value="Percutaneous endoscopic gastrostomy feeding"/>
									</coding>
								</route>
								<doseQuantity>
									<value value="100"/>
									<unit value="millilitre"/>
									<system value="http://unitsofmeasure.org"/>
									<code value="mL"/>
								</doseQuantity>
								<maxDosePerPeriod>
									<numerator>
										<value value="1000"/>
										<unit value="millilitre"/>
										<system value="http://unitsofmeasure.org"/>
										<code value="mL"/>
									</numerator>
									<denominator>
										<value value="10"/>
										<system value="http://unitsofmeasure.org"/>
										<code value="h"/>
									</denominator>
								</maxDosePerPeriod>
							</dosage>
						</MedicationStatement>
					</resource>
				</entry>
				<!--Medication Statement Example 2 - for water-->
				<entry>
					<fullUrl value="urn:uuid:fb7a3452-a454-40c4-8958-5c1a0a186aca"/>
					<resource>
						<MedicationStatement>
							<id value="fb7a3452-a454-40c4-8958-5c1a0a186aca"/>
							<meta>
								<profile value="https://fhir.nhs.uk/STU3/StructureDefinition/CareConnect-ITK-MedicationStatement-1"/>
							</meta>
							<status value="active"/>
							<medicationReference>
								<reference value="urn:uuid:61b7f433-1f6a-4f8e-8066-51acba606ba7"/>
							</medicationReference>
							<effectivePeriod>
								<start value="2017-04-05T11:00:00+00:00"/>
							</effectivePeriod>
							<subject>
								<reference value="urn:uuid:4e17be8f-8694-47e3-8740-ccf306f6cf02"/>
							</subject>
							<taken value="y"/>
							<dosage>
								<text value="1400mls water given as divided flushes (e.g. 10x140mls) throughout the day e.g. before and after feed and with medications."/>
								<timing>
									<repeat>
										<when value="AC"/>
										<when value="PC"/>
									</repeat>
								</timing>
								<asNeededBoolean value="false"/>
								<route>
									<coding>
										<system value="http://snomed.info/sct"/>
										<code value="225373002"/>
										<display value="Percutaneous endoscopic gastrostomy feeding"/>
									</coding>
								</route>
								<doseQuantity>
									<value value="140"/>
									<unit value="millilitre"/>
									<system value="http://unitsofmeasure.org"/>
									<code value="mL"/>
								</doseQuantity>
								<maxDosePerPeriod>
									<numerator>
										<value value="10"/>
									</numerator>
									<denominator>
										<value value="1"/>
										<system value="http://unitsofmeasure.org"/>
										<code value="d"/>
									</denominator>
								</maxDosePerPeriod>
							</dosage>
						</MedicationStatement>
					</resource>
				</entry>
				<!--Medication statement Example 3 - for the Multifibre feed after the Outpatient appointment-->
				<entry>
					<fullUrl value="urn:uuid:9ab72b73-c3e2-434a-a7df-234134215a7e"/>
					<resource>
						<MedicationStatement>
							<id value="9ab72b73-c3e2-434a-a7df-234134215a7e"/>
							<meta>
								<profile value="https://fhir.nhs.uk/STU3/StructureDefinition/CareConnect-ITK-MedicationStatement-1"/>
							</meta>
							<status value="active"/>
							<medicationReference>
								<reference value="urn:uuid:46c1a1b6-c2a5-44bc-a0df-80db5d4fb423"/>
							</medicationReference>
							<effectivePeriod>
								<start value="2017-05-01T09:45:00+00:00"/>
							</effectivePeriod>
							<subject>
								<reference value="urn:uuid:4e17be8f-8694-47e3-8740-ccf306f6cf02"/>
							</subject>
							<taken value="y"/>
							<dosage>
								<text value="100mls Energy Multifibre Feed at 100mls/day over 10 hours (9am-7pm)"/>
								<timing>
									<repeat>
										<duration value="10"/>
										<durationUnit value="h"/>
										<frequency value="1"/>
										<period value="1"/>
										<periodUnit value="d"/>
									</repeat>
								</timing>
								<asNeededBoolean value="false"/>
								<route>
									<coding>
										<system value="http://snomed.info/sct"/>
										<code value="225373002"/>
										<display value="Percutaneous endoscopic gastrostomy feeding"/>
									</coding>
								</route>
								<maxDosePerPeriod>
									<numerator>
										<value value="100"/>
										<unit value="millilitre"/>
										<system value="http://unitsofmeasure.org"/>
										<code value="mL"/>
									</numerator>
									<denominator>
										<value value="10"/>
										<system value="http://unitsofmeasure.org"/>
										<code value="h"/>
									</denominator>
								</maxDosePerPeriod>
							</dosage>
						</MedicationStatement>
					</resource>
				</entry>
				<!--Medication Example 1-->
				<entry>
					<fullUrl value="urn:uuid:46c1a1b6-c2a5-44bc-a0df-80db5d4fb423"/>
					<resource>
						<Medication>
							<id value="46c1a1b6-c2a5-44bc-a0df-80db5d4fb423"/>
							<meta>
								<profile value="https://fhir.hl7.org.uk/STU3/StructureDefinition/CareConnect-Medication-1"/>
							</meta>
							<code>
								<coding>
									<system value="http://snomed.info/sct"/>
									<code value="346415002"/>
									<display value="Enteral+supplement feeds"/>
								</coding>
							</code>
						</Medication>
					</resource>
				</entry>
				<!--Medication Example 2-->
				<entry>
					<fullUrl value="urn:uuid:61b7f433-1f6a-4f8e-8066-51acba606ba7"/>
					<resource>
						<Medication>
							<id value="61b7f433-1f6a-4f8e-8066-51acba606ba7"/>
							<meta>
								<profile value="https://fhir.hl7.org.uk/STU3/StructureDefinition/CareConnect-Medication-1"/>
							</meta>
							<code>
								<coding>
									<system value="http://snomed.info/sct"/>
									<code value="11713004"/>
									<display value="Water"/>
								</coding>
							</code>
						</Medication>
					</resource>
				</entry>
				<!--Medication Flag Example 1-->
				<entry>
					<fullUrl value="urn:uuid:f7fba03d-ea84-4849-b059-dee82cfd4f46"/>
					<resource>
						<Flag>
							<id value="f7fba03d-ea84-4849-b059-dee82cfd4f46"/>
							<meta>
								<profile value="https://fhir.nhs.uk/STU3/StructureDefinition/CareConnect-ITK-Medication-Flag-1"/>
							</meta>
							<!--This references the MedicationStatement - for Multifibre feed after the Outpatient appointment-->
							<extension url="https://fhir.nhs.uk/STU3/StructureDefinition/Extension-CareConnect-ITK-MedicationFlagAssociation-1">
								<valueReference>
									<reference value="urn:uuid:9ab72b73-c3e2-434a-a7df-234134215a7e"/>
								</valueReference>
							</extension>
							<identifier>
								<system value="https://tools.ietf.org/html/rfc4122"/>
								<value value="76ef531e-d072-4f62-8c78-e16b35c188c8"/>
							</identifier>
							<status value="active"/>
							<category>
								<coding>
									<system value="http://hl7.org/fhir/flag-category"/>
									<code value="drug"/>
									<display value="Drug"/>
								</coding>
							</category>
							<code>
								<coding>
									<system value="https://fhir.hl7.org.uk/STU3/CodeSystem/CareConnect-MedicationFlag-1"/>
									<code value="continue-indefinitely"/>
									<display value="Continue Indefinitely"/>
								</coding>
							</code>
							<subject>
								<reference value="urn:uuid:4e17be8f-8694-47e3-8740-ccf306f6cf02"/>
							</subject>
						</Flag>
					</resource>
				</entry>
				<!--Medication Flag Example 2-->
				<entry>
					<fullUrl value="urn:uuid:a0ffcad0-5177-4334-b990-412a80b19dc5"/>
					<resource>
						<Flag>
							<id value="a0ffcad0-5177-4334-b990-412a80b19dc5"/>
							<meta>
								<profile value="https://fhir.nhs.uk/STU3/StructureDefinition/CareConnect-ITK-Medication-Flag-1"/>
							</meta>
							<!--This references the MedicationStatement for the water-->
							<extension url="https://fhir.nhs.uk/STU3/StructureDefinition/Extension-CareConnect-ITK-MedicationFlagAssociation-1">
								<valueReference>
									<reference value="urn:uuid:fb7a3452-a454-40c4-8958-5c1a0a186aca"/>
								</valueReference>
							</extension>
							<identifier>
								<system value="https://tools.ietf.org/html/rfc4122"/>
								<value value="76ef531e-d072-4f62-8c78-e16b35c188c8"/>
							</identifier>
							<status value="active"/>
							<category>
								<coding>
									<system value="http://hl7.org/fhir/flag-category"/>
									<code value="drug"/>
									<display value="Drug"/>
								</coding>
							</category>
							<code>
								<coding>
									<system value="https://fhir.hl7.org.uk/STU3/CodeSystem/CareConnect-MedicationFlag-1"/>
									<code value="continue-indefinitely"/>
									<display value="Continue Indefinitely"/>
								</coding>
							</code>
							<subject>
								<reference value="urn:uuid:4e17be8f-8694-47e3-8740-ccf306f6cf02"/>
							</subject>
						</Flag>
					</resource>
				</entry>
				<entry>
					<fullUrl value="urn:uuid:0155caaa-588e-4e74-9be9-9481a2310c22"/>
					<resource>
						<List>
							<id value="0155caaa-588e-4e74-9be9-9481a2310c22"/>
							<meta>
								<profile value="https://fhir.nhs.uk/STU3/StructureDefinition/ITK-Allergies-List-1"/>
							</meta>
							<identifier>
								<system value="https://tools.ietf.org/html/rfc4122"/>
								<value value="d4587d0d-0a9e-4ef4-88dc-0c5e33c40f4c"/>
							</identifier>
							<status value="current"/>
							<mode value="snapshot"/>
							<code>
								<coding>
									<system value="http://hl7.org/fhir/list-example-use-codes"/>
									<code value="allergies"/>
									<display value="Allergies"/>
								</coding>
							</code>
							<subject>
								<reference value="urn:uuid:4e17be8f-8694-47e3-8740-ccf306f6cf02"/>
							</subject>
							<emptyReason>
								<coding>
									<system value="http://snomed.info/sct"/>
									<code value="716186003"/>
									<display value="No known allergy"/>
								</coding>
							</emptyReason>
						</List>
					</resource>
				</entry>
				<entry>
					<fullUrl value="urn:uuid:00d241a7-f9cb-458a-9446-b859d17b3e4d"/>
					<resource>
						<AllergyIntolerance>
							<id value="00d241a7-f9cb-458a-9446-b859d17b3e4d"/>
							<meta>
								<profile value="https://fhir.hl7.org.uk/STU3/StructureDefinition/CareConnect-AllergyIntolerance-1"/>
							</meta>
							<identifier>
								<system value="https://tools.ietf.org/html/rfc4122"/>
								<value value="671bd6ab-90ed-4d21-8f72-1b3214f5639a"/>
							</identifier>
							<clinicalStatus value="active"/>
							<verificationStatus value="confirmed"/>
							<type value="allergy"/>
							<code>
								<coding>
									<system value="http://snomed.info/sct"/>
									<code value="716186003"/>
									<display value="No known allergy"/>
								</coding>
								<text value="No known allergies or adverse reactions"/>
							</code>
							<patient>
								<reference value="urn:uuid:4e17be8f-8694-47e3-8740-ccf306f6cf02"/>
							</patient>
						</AllergyIntolerance>
					</resource>
				</entry>
				<!--Condition example 1-->
				<entry>
					<fullUrl value="urn:uuid:abbf4c46-f97b-4b04-9248-4f99a21e1879"/>
					<resource>
						<Condition>
							<id value="abbf4c46-f97b-4b04-9248-4f99a21e1879"/>
							<meta>
								<profile value="https://fhir.nhs.uk/STU3/StructureDefinition/CareConnect-ITK-Condition-1"/>
							</meta>
							<identifier>
								<system value="https://tools.ietf.org/html/rfc4122"/>
								<value value="c4b2d64e-23f3-4055-8299-141aacf9c16c"/>
							</identifier>
							<clinicalStatus value="active"/>
							<verificationStatus value="confirmed"/>
							<category>
								<coding>
									<system value="https://fhir.hl7.org.uk/STU3/CodeSystem/CareConnect-ConditionCategory-1"/>
									<code value="diagnosis"/>
									<display value="Diagnosis"/>
								</coding>
							</category>
							<code>
								<coding>
									<system value="http://snomed.info/sct"/>
									<code value="230690007"/>
									<display value="Stroke"/>
								</coding>
							</code>
							<subject>
								<reference value="urn:uuid:4e17be8f-8694-47e3-8740-ccf306f6cf02"/>
							</subject>
							<assertedDate value="2017-03-29"/>
							<asserter>
								<reference value="urn:uuid:d25fd1c6-2658-4db7-9af0-86c5f95e8ec9"/>
							</asserter>
						</Condition>
					</resource>
				</entry>
				<!--Condition example 2-->
				<entry>
					<fullUrl value="urn:uuid:4ee4465e-ed0d-4a62-b110-6fcfce3156e9"/>
					<resource>
						<Condition>
							<id value="4ee4465e-ed0d-4a62-b110-6fcfce3156e9"/>
							<meta>
								<profile value="https://fhir.nhs.uk/STU3/StructureDefinition/CareConnect-ITK-Condition-1"/>
							</meta>
							<identifier>
								<system value="https://tools.ietf.org/html/rfc4122"/>
								<value value="dc1e1c67-c503-4802-8db2-e9d3d5912807"/>
							</identifier>
							<clinicalStatus value="active"/>
							<verificationStatus value="confirmed"/>
							<category>
								<coding>
									<system value="https://fhir.hl7.org.uk/STU3/CodeSystem/CareConnect-ConditionCategory-1"/>
									<code value="complaint"/>
									<display value="Complaint"/>
								</coding>
							</category>
							<code>
								<coding>
									<system value="http://snomed.info/sct"/>
									<code value="898751000000102"/>
									<display value="Acquired swallowing difficulty"/>
								</coding>
							</code>
							<subject>
								<reference value="urn:uuid:4e17be8f-8694-47e3-8740-ccf306f6cf02"/>
							</subject>
							<onsetDateTime value="2017-04-02T12:00:00+00:00"/>
							<assertedDate value="2017-04-02"/>
							<asserter>
								<reference value="urn:uuid:d25fd1c6-2658-4db7-9af0-86c5f95e8ec9"/>
							</asserter>
						</Condition>
					</resource>
				</entry>
				<!--Procedure Example 1-->
				<entry>
					<fullUrl value="urn:uuid:f26df24c-eeb5-44a1-b59c-f78a421d308c"/>
					<resource>
						<Procedure>
							<id value="f26df24c-eeb5-44a1-b59c-f78a421d308c"/>
							<meta>
								<profile value="https://fhir.nhs.uk/STU3/StructureDefinition/CareConnect-ITK-Procedure-1"/>
							</meta>
							<extension url="https://fhir.hl7.org.uk/STU3/StructureDefinition/Extension-CareConnect-DateRecorded-1">
								<valueDateTime value="2017-05-01"/>
							</extension>
							<identifier>
								<system value="https://tools.ietf.org/html/rfc4122"/>
								<value value="b60ce67d-2b02-4a95-87c8-4b28a6dfbecb"/>
							</identifier>
							<status value="completed"/>
							<code>
								<coding>
									<system value="http://snomed.info/sct"/>
									<code value="898511000000108"/>
									<display value="Review of tube feeding regimen"/>
								</coding>
							</code>
							<subject>
								<reference value="urn:uuid:4e17be8f-8694-47e3-8740-ccf306f6cf02"/>
							</subject>
							<context>
								<reference value="urn:uuid:bd25f74e-2be5-4728-ac16-4771e2998cd2"/>
							</context>
							<performedDateTime value="2017-05-01T09:45:00+00:00"/>
							<performer>
								<actor>
									<reference value="urn:uuid:2c064afa-dbd6-44b8-86e6-a3e7fbdbcb48"/>
								</actor>
							</performer>
							<location>
								<reference value="urn:uuid:68c6b037-e5e5-4fd5-a401-86dea9a9c126"/>
							</location>
							<!--Reference to the condition which is the reason why this procedure has been performed-->
							<reasonReference>
								<reference value="urn:uuid:4ee4465e-ed0d-4a62-b110-6fcfce3156e9"/>
							</reasonReference>
						</Procedure>
					</resource>
				</entry>
				<!--Procedure Example 2-->
				<entry>
					<fullUrl value="urn:uuid:39a0d8f9-2c19-48cf-90f5-842d7659df05"/>
					<resource>
						<Procedure>
							<id value="39a0d8f9-2c19-48cf-90f5-842d7659df05"/>
							<meta>
								<profile value="https://fhir.nhs.uk/STU3/StructureDefinition/CareConnect-ITK-Procedure-1"/>
							</meta>
							<extension url="https://fhir.hl7.org.uk/STU3/StructureDefinition/Extension-CareConnect-DateRecorded-1">
								<valueDateTime value="2017-04-05"/>
							</extension>
							<identifier>
								<system value="https://tools.ietf.org/html/rfc4122"/>
								<value value="8979a463-8124-4c0f-b2ba-4cb6b8561394"/>
							</identifier>
							<status value="completed"/>
							<code>
								<coding>
									<system value="http://snomed.info/sct"/>
									<code value="235159007"/>
									<display value="Percutaneous endoscopic gastrostomy"/>
								</coding>
							</code>
							<subject>
								<reference value="urn:uuid:4e17be8f-8694-47e3-8740-ccf306f6cf02"/>
							</subject>
							<performedDateTime value="2017-04-05T08:55:00+00:00"/>
							<!--Reference to the condition which is the reason why this procedure has been performed-->
							<reasonReference>
								<reference value="urn:uuid:4ee4465e-ed0d-4a62-b110-6fcfce3156e9"/>
							</reasonReference>
						</Procedure>
					</resource>
				</entry>
				<!--Examination observation 1-->
				<entry>
					<fullUrl value="urn:uuid:3beb965d-6ba3-4731-b702-4f701affd73b"/>
					<resource>
						<Observation>
							<id value="3beb965d-6ba3-4731-b702-4f701affd73b"/>
							<meta>
								<!--Identifies the profile being used-->
								<profile value="https://fhir.nhs.uk/STU3/StructureDefinition/CareConnect-ITK-Observation-1"/>
							</meta>
							<identifier>
								<system value="https://tools.ietf.org/html/rfc4122"/>
								<value value="c9304f01-ec24-4e0d-a64f-ce4e67473e6a"/>
							</identifier>
							<status value="final"/>
							<code>
								<coding>
									<system value="http://snomed.info/sct"/>
									<code value="27113001"/>
									<display value="Body weight"/>
								</coding>
							</code>
							<subject>
								<reference value="urn:uuid:4e17be8f-8694-47e3-8740-ccf306f6cf02"/>
							</subject>
							<context>
								<reference value="urn:uuid:bd25f74e-2be5-4728-ac16-4771e2998cd2"/>
							</context>
							<effectiveDateTime value="2017-05-01T09:45:00+00:00"/>
							<performer>
								<reference value="urn:uuid:2c064afa-dbd6-44b8-86e6-a3e7fbdbcb48"/>
							</performer>
							<valueQuantity>
								<value value="80"/>
								<unit value="kilogram"/>
								<system value="http://unitsofmeasure.org"/>
								<code value="kg"/>
							</valueQuantity>
						</Observation>
					</resource>
				</entry>
				<!--Examination observation 2-->
				<entry>
					<fullUrl value="urn:uuid:c3e59755-a24e-428c-8c2d-679586d9b351"/>
					<resource>
						<Observation>
							<id value="c3e59755-a24e-428c-8c2d-679586d9b351"/>
							<meta>
								<!--Identifies the profile being used-->
								<profile value="https://fhir.nhs.uk/STU3/StructureDefinition/CareConnect-ITK-Observation-1"/>
							</meta>
							<identifier>
								<system value="https://tools.ietf.org/html/rfc4122"/>
								<value value="f9965117-ad0c-46a6-91dc-7fd17069a0e7"/>
							</identifier>
							<status value="final"/>
							<code>
								<coding>
									<system value="http://snomed.info/sct"/>
									<code value="50373000"/>
									<display value="Body height measure"/>
								</coding>
							</code>
							<subject>
								<reference value="urn:uuid:4e17be8f-8694-47e3-8740-ccf306f6cf02"/>
							</subject>
							<context>
								<reference value="urn:uuid:bd25f74e-2be5-4728-ac16-4771e2998cd2"/>
							</context>
							<effectiveDateTime value="2017-05-01T09:45:00+00:00"/>
							<performer>
								<reference value="urn:uuid:2c064afa-dbd6-44b8-86e6-a3e7fbdbcb48"/>
							</performer>
							<valueQuantity>
								<value value="175"/>
								<unit value="centimetre"/>
								<system value="http://unitsofmeasure.org"/>
								<code value="cm"/>
							</valueQuantity>
						</Observation>
					</resource>
				</entry>
				<!--Examination observation 3-->
				<entry>
					<fullUrl value="urn:uuid:5cdabdbb-c5ea-40d4-8a7d-15eaa441e7ff"/>
					<resource>
						<Observation>
							<id value="5cdabdbb-c5ea-40d4-8a7d-15eaa441e7ff"/>
							<meta>
								<!--Identifies the profile being used-->
								<profile value="https://fhir.nhs.uk/STU3/StructureDefinition/CareConnect-ITK-Observation-1"/>
							</meta>
							<identifier>
								<system value="https://tools.ietf.org/html/rfc4122"/>
								<value value="37fa242f-4b48-4f18-bd33-d5850842d6bd"/>
							</identifier>
							<status value="final"/>
							<code>
								<coding>
									<system value="http://snomed.info/sct"/>
									<code value="301331008"/>
									<display value="Finding of body mass index"/>
								</coding>
							</code>
							<subject>
								<reference value="urn:uuid:4e17be8f-8694-47e3-8740-ccf306f6cf02"/>
							</subject>
							<context>
								<reference value="urn:uuid:bd25f74e-2be5-4728-ac16-4771e2998cd2"/>
							</context>
							<effectiveDateTime value="2017-05-01T09:45:00+00:00"/>
							<performer>
								<reference value="urn:uuid:2c064afa-dbd6-44b8-86e6-a3e7fbdbcb48"/>
							</performer>
							<valueQuantity>
								<value value="26"/>
								<unit value="kilogram per square metre"/>
								<system value="http://unitsofmeasure.org"/>
								<code value="kg/m2"/>
							</valueQuantity>
						</Observation>
					</resource>
				</entry>
				<!--Examination observation 4-->
				<entry>
					<fullUrl value="urn:uuid:efc63641-7407-464a-8db8-f6f0a5eafc58"/>
					<resource>
						<Observation>
							<id value="efc63641-7407-464a-8db8-f6f0a5eafc58"/>
							<meta>
								<!--Identifies the profile being used-->
								<profile value="https://fhir.nhs.uk/STU3/StructureDefinition/CareConnect-ITK-Observation-1"/>
							</meta>
							<identifier>
								<system value="https://tools.ietf.org/html/rfc4122"/>
								<value value="0f8f732b-548b-488d-a1dc-f9718dac80ee"/>
							</identifier>
							<status value="final"/>
							<code>
								<coding>
									<system value="http://snomed.info/sct"/>
									<code value="27113001"/>
									<display value="Body weight"/>
								</coding>
							</code>
							<subject>
								<reference value="urn:uuid:4e17be8f-8694-47e3-8740-ccf306f6cf02"/>
							</subject>
							<context>
								<reference value="urn:uuid:bd25f74e-2be5-4728-ac16-4771e2998cd2"/>
							</context>
							<effectiveDateTime value="2017-05-01T09:45:00+00:00"/>
							<performer>
								<reference value="urn:uuid:2c064afa-dbd6-44b8-86e6-a3e7fbdbcb48"/>
							</performer>
							<valueCodeableConcept>
								<coding>
									<system value="http://snomed.info/sct"/>
									<code value="271398006"/>
									<display value="Weight steady"/>
								</coding>
							</valueCodeableConcept>
						</Observation>
					</resource>
				</entry>
				<!--Patient-Example-1-->
				<entry>
					<fullUrl value="urn:uuid:4e17be8f-8694-47e3-8740-ccf306f6cf02"/>
					<resource>
						<Patient>
							<id value="4e17be8f-8694-47e3-8740-ccf306f6cf02"/>
							<meta>
								<profile value="https://fhir.hl7.org.uk/STU3/StructureDefinition/CareConnect-Patient-1"/>
							</meta>
							<extension url="https://fhir.hl7.org.uk/STU3/StructureDefinition/Extension-CareConnect-EthnicCategory-1">
								<valueCodeableConcept>
									<coding>
										<system value="https://fhir.hl7.org.uk/STU3/CodeSystem/CareConnect-EthnicCategory-1"/>
										<code value="CA"/>
										<display value="English"/>
									</coding>
								</valueCodeableConcept>
							</extension>
							<extension url="https://fhir.hl7.org.uk/STU3/StructureDefinition/Extension-CareConnect-NHSCommunication-1">
								<extension url="language">
									<valueCodeableConcept>
										<coding>
											<system value="https://fhir.hl7.org.uk/STU3/CodeSystem/CareConnect-HumanLanguage-1"/>
											<code value="en"/>
											<display value="English"/>
										</coding>
									</valueCodeableConcept>
								</extension>
								<extension url="preferred">
									<valueBoolean value="true"/>
								</extension>
								<extension url="modeOfCommunication">
									<valueCodeableConcept>
										<coding>
											<system value="https://fhir.hl7.org.uk/STU3/CodeSystem/CareConnect-LanguageAbilityMode-1"/>
											<code value="ESP"/>
											<display value="Expressed spoken"/>
										</coding>
									</valueCodeableConcept>
								</extension>
								<extension url="modeOfCommunication">
									<valueCodeableConcept>
										<coding>
											<system value="https://fhir.hl7.org.uk/STU3/CodeSystem/CareConnect-LanguageAbilityMode-1"/>
											<code value="RWR"/>
											<display value="Received written"/>
										</coding>
									</valueCodeableConcept>
								</extension>
								<extension url="communicationProficiency">
									<valueCodeableConcept>
										<coding>
											<system value="https://fhir.hl7.org.uk/STU3/CodeSystem/CareConnect-LanguageAbilityProficiency-1"/>
											<code value="E"/>
											<display value="Excellent"/>
										</coding>
									</valueCodeableConcept>
								</extension>
								<extension url="interpreterRequired">
									<valueBoolean value="false"/>
								</extension>
							</extension>
							<identifier>
								<extension url="https://fhir.hl7.org.uk/STU3/StructureDefinition/Extension-CareConnect-NHSNumberVerificationStatus-1">
									<valueCodeableConcept>
										<coding>
											<system value="https://fhir.hl7.org.uk/STU3/CodeSystem/CareConnect-NHSNumberVerificationStatus-1"/>
											<code value="01"/>
											<display value="Number present and verified"/>
										</coding>
									</valueCodeableConcept>
								</extension>
								<system value="https://fhir.nhs.uk/Id/nhs-number"/>
								<value value="123 456 7890"/>
							</identifier>
							<identifier>
								<system value="https://fhir.nhs.uk/Id/local-patient-identifier"/>
								<value value="TL98765"/>
							</identifier>
							<active value="true"/>
							<name>
								<use value="official"/>
								<family value="Linacre"/>
								<given value="Thomas"/>
								<prefix value="Mr"/>
							</name>
							<name>
								<use value="usual"/>
								<family value="Linacre"/>
								<given value="Tom"/>
								<prefix value="Mr"/>
							</name>
							<telecom>
								<system value="phone"/>
								<value value="077 7777 777"/>
								<use value="mobile"/>
							</telecom>
							<telecom>
								<system value="email"/>
								<value value="thomas@linacre.net"/>
								<use value="home"/>
							</telecom>
							<gender value="male"/>
							<birthDate value="1960-01-01"/>
							<address>
								<use value="home"/>
								<line value="29 Acacia Road"/>
								<postalCode value="BM9 6PL"/>
							</address>
						</Patient>
					</resource>
				</entry>
				<!--Practitioner-Example-1-->
				<entry>
					<fullUrl value="urn:uuid:5e414a77-d394-4248-a631-00e45ddb64a0"/>
					<resource>
						<Practitioner>
							<id value="5e414a77-d394-4248-a631-00e45ddb64a0"/>
							<meta>
								<profile value="https://fhir.hl7.org.uk/STU3/StructureDefinition/CareConnect-Practitioner-1"/>
							</meta>
							<name>
								<family value="O`Reilly"/>
								<given value="C"/>
								<prefix value="Dr"/>
							</name>
							<telecom>
								<system value="phone"/>
								<value value="01234 956412"/>
								<use value="work"/>
							</telecom>
							<address>
								<line value="Canvas Health Centre"/>
								<line value="27, Acacia Road"/>
								<postalCode value="BM9 6PM"/>
							</address>
						</Practitioner>
					</resource>
				</entry>
				<!--Practitioner-Example-2-->
				<entry>
					<fullUrl value="urn:uuid:d25fd1c6-2658-4db7-9af0-86c5f95e8ec9"/>
					<resource>
						<Practitioner>
							<id value="d25fd1c6-2658-4db7-9af0-86c5f95e8ec9"/>
							<meta>
								<profile value="https://fhir.hl7.org.uk/STU3/StructureDefinition/CareConnect-Practitioner-1"/>
							</meta>
							<name>
								<family value="McManus"/>
								<given value="Gerald"/>
								<prefix value="Dr"/>
							</name>
							<address>
								<line value="St. Crispin's Hospital"/>
								<city value="Donaldstown"/>
								<postalCode value="DO5 7TP"/>
							</address>
						</Practitioner>
					</resource>
				</entry>
				<!--Practitioner-Example-3-->
				<entry>
					<fullUrl value="urn:uuid:5ca24866-f34e-43d5-9d4a-c661beb9b5ae"/>
					<resource>
						<Practitioner>
							<id value="5ca24866-f34e-43d5-9d4a-c661beb9b5ae"/>
							<meta>
								<profile value="https://fhir.hl7.org.uk/STU3/StructureDefinition/CareConnect-Practitioner-1"/>
							</meta>
							<name>
								<family value="Sway"/>
								<given value="Doug"/>
								<prefix value="Mr"/>
							</name>
						</Practitioner>
					</resource>
				</entry>
				<!--Practitioner-Example-4-->
				<entry>
					<fullUrl value="urn:uuid:246a8b1a-24af-4690-b894-effe41c5638b"/>
					<resource>
						<Practitioner>
							<id value="246a8b1a-24af-4690-b894-effe41c5638b"/>
							<meta>
								<profile value="https://fhir.hl7.org.uk/STU3/StructureDefinition/CareConnect-Practitioner-1"/>
							</meta>
							<name>
								<family value="Bibi"/>
								<given value="Sugra"/>
								<prefix value="Ms"/>
							</name>
							<address>
								<line value="St. Crispin's Hospital"/>
								<city value="Donaldstown"/>
								<postalCode value="DO5 7TP"/>
							</address>
						</Practitioner>
					</resource>
				</entry>
				<!--Practitioner-Example-5-->
				<entry>
					<fullUrl value="urn:uuid:2c064afa-dbd6-44b8-86e6-a3e7fbdbcb48"/>
					<resource>
						<Practitioner>
							<id value="2c064afa-dbd6-44b8-86e6-a3e7fbdbcb48"/>
							<meta>
								<profile value="https://fhir.hl7.org.uk/STU3/StructureDefinition/CareConnect-Practitioner-1"/>
							</meta>
							<identifier>
								<system value="https://fhir.nhs.uk/Id/local-practitioner-identifier"/>
								<value value="DT03001"/>
							</identifier>
							<name>
								<family value="Blight"/>
								<given value="Susan"/>
								<prefix value="Mrs"/>
							</name>
							<telecom>
								<system value="phone"/>
								<value value="01234 569870"/>
								<use value="work"/>
							</telecom>
							<address>
								<line value="Canvas Health Centre"/>
								<line value="27, Acacia Road"/>
								<postalCode value="BM9 6PM"/>
							</address>
						</Practitioner>
					</resource>
				</entry>
				<!--Practitioner roles-->
				<entry>
					<fullUrl value="urn:uuid:2b103117-a783-4a66-a0de-f308cd6b63cf"/>
					<resource>
						<PractitionerRole>
							<id value="2b103117-a783-4a66-a0de-f308cd6b63cf"/>
							<meta>
								<profile value="https://fhir.hl7.org.uk/STU3/StructureDefinition/CareConnect-PractitionerRole-1"/>
							</meta>
							<practitioner>
								<reference value="urn:uuid:5e414a77-d394-4248-a631-00e45ddb64a0"/>
							</practitioner>
							<organization>
								<reference value="urn:uuid:f9f24f89-646b-4a19-a6b1-cabfa3b612e1"/>
							</organization>
							<code>
								<coding>
									<system value="https://fhir.hl7.org.uk/STU3/CodeSystem/CareConnect-SDSJobRoleName-1"/>
									<code value="R0260"/>
									<display value="General Medical Practitioner"/>
								</coding>
							</code>
						</PractitionerRole>
					</resource>
				</entry>
				<entry>
					<fullUrl value="urn:uuid:2e9585bc-4a09-4a06-8862-5a8cb6198fa7"/>
					<resource>
						<PractitionerRole>
							<id value="2e9585bc-4a09-4a06-8862-5a8cb6198fa7"/>
							<meta>
								<profile value="https://fhir.hl7.org.uk/STU3/StructureDefinition/CareConnect-PractitionerRole-1"/>
							</meta>
							<practitioner>
								<reference value="urn:uuid:d25fd1c6-2658-4db7-9af0-86c5f95e8ec9"/>
							</practitioner>
							<organization>
								<reference value="urn:uuid:12bba528-a08a-448b-946b-7e8008044025"/>
							</organization>
							<code>
								<coding>
									<system value="https://fhir.nhs.uk/STU3/CodeSystem/CareConnect-SDSJobRoleName-1"/>
									<code value="R0050"/>
									<display value="Consultant"/>
								</coding>
							</code>
							<specialty>
								<coding>
									<system value="http://snomed.info/sct"/>
									<code value="56397003"/>
									<display value="Neurologist"/>
								</coding>
							</specialty>
						</PractitionerRole>
					</resource>
				</entry>
				<entry>
					<fullUrl value="urn:uuid:2bba2b2b-2b55-43ef-9b27-7ccf374cbaed"/>
					<resource>
						<PractitionerRole>
							<id value="2bba2b2b-2b55-43ef-9b27-7ccf374cbaed"/>
							<meta>
								<profile value="https://fhir.hl7.org.uk/STU3/StructureDefinition/CareConnect-PractitionerRole-1"/>
							</meta>
							<practitioner>
								<reference value="urn:uuid:5ca24866-f34e-43d5-9d4a-c661beb9b5ae"/>
							</practitioner>
							<organization>
								<reference value="urn:uuid:b945154b-114f-4da3-98fb-7f6978083e9b"/>
							</organization>
							<specialty>
								<coding>
									<system value="http://snomed.info/sct"/>
									<code value="106292003"/>
									<display value="Professional nurse"/>
								</coding>
							</specialty>
						</PractitionerRole>
					</resource>
				</entry>
				<entry>
					<fullUrl value="urn:uuid:ea8932d8-e341-46e3-849f-0fa24f48b5fc"/>
					<resource>
						<PractitionerRole>
							<id value="ea8932d8-e341-46e3-849f-0fa24f48b5fc"/>
							<meta>
								<profile value="https://fhir.hl7.org.uk/STU3/StructureDefinition/CareConnect-PractitionerRole-1"/>
							</meta>
							<practitioner>
								<reference value="urn:uuid:246a8b1a-24af-4690-b894-effe41c5638b"/>
							</practitioner>
							<organization>
								<reference value="urn:uuid:12bba528-a08a-448b-946b-7e8008044025"/>
							</organization>
							<specialty>
								<coding>
									<system value="http://snomed.info/sct"/>
									<code value="309399009"/>
									<display value="Hospital dietitian"/>
								</coding>
							</specialty>
						</PractitionerRole>
					</resource>
				</entry>
				<entry>
					<fullUrl value="urn:uuid:b9ea89f3-10d1-404d-810e-f8623ee11406"/>
					<resource>
						<PractitionerRole>
							<id value="b9ea89f3-10d1-404d-810e-f8623ee11406"/>
							<meta>
								<profile value="https://fhir.hl7.org.uk/STU3/StructureDefinition/CareConnect-PractitionerRole-1"/>
							</meta>
							<practitioner>
								<reference value="urn:uuid:2c064afa-dbd6-44b8-86e6-a3e7fbdbcb48"/>
							</practitioner>
							<organization>
								<reference value="urn:uuid:f93186cd-b628-47e6-b97f-102ae75e6845"/>
							</organization>
							<specialty>
								<coding>
									<system value="http://snomed.info/sct"/>
									<code value="60008001"/>
									<display value="Community dietitian"/>
								</coding>
							</specialty>
							<location>
								<reference value="urn:uuid:68c6b037-e5e5-4fd5-a401-86dea9a9c126"/>
							</location>
						</PractitionerRole>
					</resource>
				</entry>
				<!--Organization-Example-1-->
				<entry>
					<fullUrl value="urn:uuid:f9f24f89-646b-4a19-a6b1-cabfa3b612e1"/>
					<resource>
						<Organization>
							<id value="f9f24f89-646b-4a19-a6b1-cabfa3b612e1"/>
							<meta>
								<profile value="https://fhir.hl7.org.uk/STU3/StructureDefinition/CareConnect-Organization-1"/>
							</meta>
							<identifier>
								<system value="https://fhir.nhs.uk/Id/ods-organization-code"/>
								<value value="A111111"/>
							</identifier>
							<type>
								<coding>
									<system value="http://hl7.org/fhir/organization-type"/>
									<code value="prov"/>
									<display value="Healthcare Provider"/>
								</coding>
							</type>
							<name value="Canvas Health Centre"/>
							<telecom>
								<system value="phone"/>
								<value value="01234 956412"/>
								<use value="work"/>
							</telecom>
							<telecom>
								<system value="email"/>
								<value value="Admin@chc.nhs.uk"/>
							</telecom>
							<address>
								<use value="work"/>
								<line value="27 Acacia Road"/>
								<postalCode value="BM9 6PM "/>
							</address>
						</Organization>
					</resource>
				</entry>
				<!--Organization-Example-2-->
				<entry>
					<fullUrl value="urn:uuid:12bba528-a08a-448b-946b-7e8008044025"/>
					<resource>
						<Organization>
							<id value="12bba528-a08a-448b-946b-7e8008044025"/>
							<meta>
								<profile value="https://fhir.hl7.org.uk/STU3/StructureDefinition/CareConnect-Organization-1"/>
							</meta>
							<identifier>
								<system value="https://fhir.nhs.uk/Id/ods-organization-code"/>
								<value value="RX0000"/>
							</identifier>
							<type>
								<coding>
									<system value="http://hl7.org/fhir/organization-type"/>
									<code value="prov"/>
									<display value="Healthcare Provider"/>
								</coding>
							</type>
							<name value="St Crispin’s Hospital"/>
							<telecom>
								<system value="phone"/>
								<value value="01234 567890"/>
								<use value="work"/>
							</telecom>
							<address>
								<line value="St Crispin’s Hospital"/>
								<line value="Donaldstown"/>
								<postalCode value="DO5 7TP"/>
							</address>
						</Organization>
					</resource>
				</entry>
				<!--Organization-Example-3-->
				<entry>
					<fullUrl value="urn:uuid:b945154b-114f-4da3-98fb-7f6978083e9b"/>
					<resource>
						<Organization>
							<id value="b945154b-114f-4da3-98fb-7f6978083e9b"/>
							<meta>
								<profile value="https://fhir.hl7.org.uk/STU3/StructureDefinition/CareConnect-Organization-1"/>
							</meta>
							<type>
								<coding>
									<system value="http://hl7.org/fhir/organization-type"/>
									<code value="prov"/>
									<display value="Healthcare Provider"/>
								</coding>
							</type>
							<name value="Company X"/>
							<telecom>
								<system value="phone"/>
								<value value="01234 956588"/>
								<use value="work"/>
							</telecom>
							<telecom>
								<system value="email"/>
								<value value="Admin@CompanyX.co.uk"/>
							</telecom>
							<address>
								<use value="work"/>
								<line value="20 Allred Street"/>
								<city value="Donaldstown"/>
								<postalCode value="DO6 7PL "/>
							</address>
						</Organization>
					</resource>
				</entry>
				<!--Organization-Example-4-->
				<entry>
					<fullUrl value="urn:uuid:f93186cd-b628-47e6-b97f-102ae75e6845"/>
					<resource>
						<Organization>
							<id value="f93186cd-b628-47e6-b97f-102ae75e6845"/>
							<meta>
								<profile value="https://fhir.hl7.org.uk/STU3/StructureDefinition/CareConnect-Organization-1"/>
							</meta>
							<type>
								<coding>
									<system value="http://hl7.org/fhir/organization-type"/>
									<code value="team"/>
									<display value="Organizational team"/>
								</coding>
							</type>
							<name value="Community Nutrition and Dietetics Department"/>
							<telecom>
								<system value="phone"/>
								<value value="01234 567890"/>
								<use value="work"/>
							</telecom>
							<telecom>
								<system value="email"/>
								<value value="cndd@adobehc.nhs.uk"/>
							</telecom>
							<address>
								<use value="work"/>
								<line value="Adobe Health Centre"/>
								<city value="Donaldstown"/>
								<postalCode value="DO1 4XP"/>
							</address>
						</Organization>
					</resource>
				</entry>
				<entry>
					<fullUrl value="urn:uuid:68c6b037-e5e5-4fd5-a401-86dea9a9c126"/>
					<resource>
						<Location>
							<id value="68c6b037-e5e5-4fd5-a401-86dea9a9c126"/>
							<meta>
								<profile value="https://fhir.hl7.org.uk/STU3/StructureDefinition/CareConnect-Location-1"/>
							</meta>
							<name value="Community Nutrition and Dietetics Outpatient Clinic"/>
							<type>
								<coding>
									<system value="http://hl7.org/fhir/v3/RoleCode"/>
									<code value="OF"/>
									<display value="Outpatient facility"/>
								</coding>
							</type>
							<address>
								<use value="work"/>
								<line value="Adobe Health Centre"/>
								<city value="Donaldstown"/>
								<postalCode value="DO1 4XP"/>
							</address>
							<managingOrganization>
								<reference value="urn:uuid:f93186cd-b628-47e6-b97f-102ae75e6845"/>
							</managingOrganization>
						</Location>
					</resource>
				</entry>
			</Bundle>
		</resource>
	</entry>
</Bundle>
